Folder: Aluminium-Physical-Properties

File: aluminum_wire_properties_10000.csv
Al (%),Mg (%),Si (%),Zn (%),Temperature (Â°C),Rolling Speed (m/s),"Heat Treatment (Yes=1, No=0)",Tensile Strength (MPa),Yield Strength (MPa),Elongation (%)
93.4982,2.49456,1.595,1.27629,394.837,1.07779,1,352.748,284.935,8.93648
94.916,2.09654,1.23999,0.643221,452.447,0.867676,0,323.737,269.808,10.3415
95.6331,4.55477,0.616841,0.586647,388.485,0.417785,0,346.565,287.424,8.84405
92.976,3.18243,1.13592,0.647551,359.25,0.725916,1,373.555,292.42,8.2958
92.2067,4.64494,1.76554,1.66,382.853,0.535635,0,348.45,282.874,7.64673
93.2759,2.974,1.33518,1.43707,443.544,0.482307,0,335.081,277.84,10.0168
95.1086,3.91561,1.78935,1.2834,405.629,0.887946,1,383.351,294.55,6.0952
93.8748,4.05698,0.687356,0.707926,498.896,0.768181,0,335.193,282.846,9.06722
92.6757,1.7748,1.7768,0.965193,421.7,1.15827,1,360.312,286.359,10.6623
95.9295,4.08722,0.72665,1.21326,488.272,0.945531,1,375.285,299.647,6.4263
92.4676,2.70578,1.84304,0.0787507,372.318,0.746463,0,342.133,273.932,12.0419
95.6794,3.02492,0.953908,0.773258,359.435,1.11668,1,370.249,289.596,7.59222
92.8315,3.05753,1.74572,1.66765,375,1.06538,0,345.946,272.568,11.1688
93.0491,2.79251,1.05741,1.45654,409.735,1.03365,1,354.042,291.792,8.60123
95.4988,1.09234,1.30687,0.377931,474.866,0.678857,1,354.456,278.137,10.9918
94.2034,3.88985,1.76978,1.22318,468.536,0.718821,1,378.785,300.779,7.55274
95.0331,1.9086,0.532461,1.30819,455.55,0.919473,1,343.775,288.449,12.7195
92.4197,2.20012,0.539125,1.99939,477.08,1.14225,0,315.361,265.358,12.435
95.4681,2.57104,0.790144,1.40405,496.872,0.556123,1,366.942,290.545,9.07573
95.8605,2.46018,1.66783,0.443639,451.097,0.85342,0,335.823,267.472,9.07185
94.0763,2.23342,0.968994,0.447183,444.088,1.01115,0,333.983,261.035,12.6113
92.3829,1.60635,1.41443,0.881957,414.796,0.43189,0,321.084,258.729,12.8992
92.1446,2.43677,0.623572,1.76004,422.231,0.724045,0,331.203,263.831,10.1179
92.2492,2.64197,1.25876,1.76693,432.68,0.910248,1,374.885,292.578,8.77185
95.826,1.70854,1.39757,0.974033,397.567,0.445835,0,329.671,263.373,12.273
94.1689,4.7471,0.622181,1.82249,490.155,0.65016,1,387.306,303.296,6.0397
92.3544,4.97349,1.34205,1.08451,447.517,0.708794,0,358.001,289.404,8.25507
93.0406,1.24179,0.645218,1.49796,431.971,1.14893,0,320.303,266.932,14.3909
95.6604,2.62746,0.550767,1.154,457.479,0.52739,1,358.46,286.261,9.06322
95.3482,3.72455,1.46163,0.77067,421.424,0.891196,1,377.043,294.958,7.1304
92.3754,3.67144,1.90874,0.0604117,483.069,0.805905,1,379.422,296.019,7.30637
95.8202,4.1603,1.34758,1.24448,371.512,1.05977,1,381.343,301.208,7.64436
93.3624,3.97495,0.727765,0.95857,443.408,1.15847,1,380.234,311.776,5.57847
95.4799,2.39779,0.968428,0.939034,391.239,0.798375,1,354.745,288.596,10.8906
93.3953,2.9457,1.02608,0.377657,393.943,0.508318,0,334.508,270.938,10.3822
95.8563,1.96129,1.25692,0.0865263,498.127,0.829091,1,355.006,284.957,8.64516
94.0852,2.95296,0.613599,1.37542,424.996,1.13627,1,360.721,296.549,9.32537
93.7313,2.67756,1.8543,1.49571,429.73,0.427339,1,369.475,288.392,9.4848
94.6265,1.90023,1.57084,0.460092,379.357,1.15952,1,354.827,283.523,8.39013
95.6078,2.43347,1.15167,0.916748,397.345,0.867195,0,332.837,272.572,11.6167
94.6908,4.89727,1.28487,1.01803,355.602,1.10565,0,355.87,290.399,6.88353
95.4644,3.50159,1.58848,0.89976,437.942,0.731581,1,374.493,307.251,7.02875
94.521,2.05126,1.67165,0.373348,487.761,0.856013,0,329.487,262.432,10.8207
95.5634,1.9363,1.90305,1.45292,477.596,1.10322,1,361.65,294.056,9.13625
93.7339,3.0672,0.64024,0.320106,417.886,0.62801,0,335.916,266.222,7.87282
95.1121,3.26866,1.31014,1.93568,366.741,0.402034,1,362.584,292.362,8.11269
93.8191,4.13804,0.584337,1.76879,412.585,1.1893,1,384.408,297.141,6.98013
92.5891,4.44545,1.21407,1.23709,467.618,0.654114,1,384.286,303.135,5.90815
92.5649,1.7468,1.31158,1.95659,470.446,0.993504,0,329.226,261.074,14.1717
93.1242,3.23406,1.14076,1.73046,494.425,0.411419,0,341.801,279.954,9.61994
95.5823,1.31513,1.76073,1.64187,482.682,0.553679,0,322.588,258.43,12.5101
92.3388,1.96617,1.74105,0.383425,497.792,0.806825,1,359.439,281.783,10.1311
93.7252,2.01953,1.53664,0.0865298,383.528,1.0497,0,319.968,268.732,11.6444
95.617,1.78107,1.73041,1.89549,355.497,0.615306,0,319.389,265.417,10.7043
95.7377,3.61373,0.74081,1.12991,382.42,0.617841,1,364.24,295.474,8.19305
94.7054,3.91694,1.45185,0.834739,498.492,0.91612,0,346.447,286.833,9.14555
95.3998,2.87291,1.68881,0.593075,398.263,0.731594,0,353.24,274.828,10.4964
94.3269,1.81555,1.62488,0.033736,399.656,1.02931,0,330.068,258.026,12.0698
95.1376,1.51639,0.759097,0.968037,447.839,0.672402,1,351.296,279.723,12.1031
93.5726,4.07752,0.86612,0.87044,366.716,0.877648,0,348.763,283.452,10.2603
94.3972,3.99424,0.826725,0.593357,499.762,0.607061,1,377.24,292.372,7.82318
93.2504,2.34115,1.84925,1.86812,373.058,0.837598,1,370.103,288.054,12.1646
92.2145,1.87375,0.882554,0.356437,478.131,1.19311,0,313.898,270.373,12.8917
92.0009,4.41004,0.561766,1.38122,361.427,0.664174,0,355.685,286.927,9.01314
92.4954,4.86183,1.2619,0.338578,495.282,0.401164,1,378.507,298.586,4.90266
94.5712,3.42811,1.05732,0.78149,423.925,0.851884,1,373.079,303.62,8.8338
93.5802,3.28541,0.584341,0.171721,493.163,1.17841,0,324.559,271.31,9.23783
94.1104,4.52476,1.12795,1.94674,468.676,0.733054,0,361.03,284.628,8.524
93.7963,2.86349,0.749286,1.73387,434.486,0.573752,0,330.375,261.078,12.3667
95.2666,3.85727,1.82383,1.18028,485.009,1.03969,0,357.79,281.101,8.97528
93.5442,1.13275,1.66674,1.76698,463.068,0.763513,0,329.023,250.807,12.5831
94.3142,3.21357,1.55842,0.111318,437.465,1.0366,1,367.954,295.558,8.2492
92.976,3.49132,1.27011,0.0848702,353.079,0.420124,0,341.46,271.779,9.92086
93.6367,1.32983,1.70654,0.517233,488.843,0.488874,1,355.523,279.934,9.72732
93.0402,2.96455,0.878085,0.801253,364.797,0.866469,1,359.927,291.858,9.53106
95.3749,2.29576,0.719843,1.84488,405.935,0.796206,0,329.395,269.516,13.4688
93.1793,2.19474,1.58886,0.278151,381.345,0.446961,1,353.535,285.487,7.89276
93.5013,3.59064,0.55237,0.517298,477.303,1.19424,1,358.765,306.538,8.39299
92.65,1.70745,0.873917,0.682291,464.65,1.17134,1,334.804,290.746,10.7066
94.8702,4.51729,0.643774,1.85735,432.959,0.877987,0,345.52,289.347,6.88347
94.593,1.01761,0.590855,1.83318,411.135,0.776721,0,314.855,262.656,11.5581
92.1406,1.70427,1.06935,0.765493,417.029,0.416353,1,350.065,277.388,9.80482
94.3191,4.90333,1.96052,1.59686,431.423,0.440003,0,350.656,285.04,6.28115
94.5128,4.78143,0.644932,1.76961,366.937,0.549912,0,349.461,292.114,7.34234
95.1317,2.66193,1.15769,0.496334,369.529,0.507571,1,367.781,284.079,10.212
92.1577,1.80776,1.13729,1.72219,491.135,1.07326,1,357.563,279.922,10.1869
95.3644,4.3868,1.15089,1.28246,392.319,0.914986,0,343.956,289.955,9.5359
95.9942,3.52773,1.37705,1.23489,452.254,0.869901,0,330.98,274.657,9.52741
94.1339,2.612,1.90548,1.95889,480.946,0.936926,0,349.946,274.8,12.3857
95.435,2.69304,0.553563,0.546583,386.186,0.686461,1,356.79,287.437,8.51277
93.1496,4.23248,1.14502,0.269339,482.937,0.956893,1,380.695,296.874,4.89798
95.2444,1.31659,0.597908,1.32011,447.336,1.0587,1,346.894,284.885,10.4679
92.9189,2.14217,1.62099,1.77851,381.578,0.764666,0,330.283,264.112,12.1494
93.7442,3.59676,1.55961,1.97003,402.261,0.555645,0,342.193,276.4,8.2522
95.513,3.29101,1.4033,0.105018,467.337,0.651648,0,343.606,269.084,10.2493
93.928,3.29545,1.21741,0.717668,466.557,1.1826,1,372.203,294.866,8.33231
93.4761,3.26641,1.11052,0.327159,378.268,0.513205,1,366.807,307.259,7.92183
95.5,2.6347,0.593031,0.695983,487.192,0.493487,0,331.136,266.39,11.2896
93.3173,4.12417,0.92033,0.727406,370.786,1.12967,1,378.761,309.067,6.65141
93.4708,1.09025,0.634172,1.84114,462.08,0.801679,1,350.893,274.635,9.08013
94.1715,1.9622,1.95798,1.00586,357.499,0.565074,0,327.596,267.933,11.8993
92.6744,4.1504,0.829628,1.55331,357.076,0.994266,0,339.01,286.075,8.18624
92.2889,2.20959,1.27062,0.545531,378.968,0.799169,1,349.682,294.745,9.92288
92.5589,4.72335,0.602429,1.78309,499.488,1.01853,1,376.958,302.093,5.39862
92.1513,4.88591,0.631065,0.263338,444.423,0.581541,0,353.174,291.113,8.78718
94.1744,3.3143,1.15818,0.17378,414.212,0.920126,1,360.634,288.495,8.08639
95.8008,4.04385,1.00892,0.452242,459.069,1.05228,1,377.692,305.428,6.14135
93.6243,4.54774,1.70336,0.919187,430.731,0.461185,0,346.248,281.378,9.54148
95.2649,1.30578,0.71084,1.28662,430.592,0.971081,0,317.282,258.752,15.2405
93.1526,4.66111,1.50455,1.17659,488.23,0.488245,1,382.034,295.909,6.49374
95.6858,1.68875,0.75167,0.829872,450.28,0.640868,1,348.002,279.566,11.6344
95.3012,2.22848,1.43571,0.432297,396.922,0.665657,0,327.003,255.391,12.49
93.9961,4.19179,1.15746,0.0585309,411.435,1.1549,1,377.566,311.638,6.17128
94.8196,3.30474,0.763884,1.68246,456.606,0.59004,0,345.18,283.735,10.4234
95.6583,4.52785,1.73485,0.256113,357.104,0.8546,0,352.462,282.25,10.0012
94.418,3.93074,0.650993,1.55135,366.341,0.708909,1,369.354,302.23,7.41646
95.7116,2.43905,0.899512,0.936329,462.163,0.706446,0,338.246,268.749,12.0634
92.5055,3.98313,1.75651,0.837953,477.866,1.18591,0,354.946,267.917,7.50332
95.6805,4.90193,1.35994,0.75479,413.791,0.648747,0,352.833,285.963,7.19474
94.3773,2.41495,1.65718,1.59257,369.308,0.904019,0,333.529,268.558,11.3894
95.6543,2.54623,0.801548,0.266404,480.211,0.753023,1,363.386,280.022,8.60718
94.9631,3.57791,1.03394,0.086655,380.382,1.15628,1,368.233,301.388,8.91669
94.1739,3.09114,1.8168,0.0487362,460.927,0.644453,1,364.571,297.891,7.99402
95.7095,1.65825,1.02684,0.439887,468.9,0.827012,0,324.377,261.074,11.1745
93.0605,4.04968,1.06785,0.898946,406.125,0.862629,1,377.373,295.349,5.52805
92.9868,3.13915,0.939413,1.30457,495.657,0.857291,1,377.095,301.178,9.26277
93.7942,2.53606,1.1376,0.167197,446.965,0.761071,0,339.813,274.469,11.6462
93.8427,3.96495,1.20024,0.0495767,455.396,1.15107,0,344.305,284.82,9.22772
92.0767,1.81793,0.890632,0.754843,398.676,0.611596,0,317.573,265.081,10.3767
94.3199,2.713,1.01492,1.26444,366.474,1.16779,0,327.148,271.982,10.9978
93.3807,4.8542,1.89343,1.19029,391.208,1.11144,0,362.46,287.263,6.3991
95.1666,3.68974,1.01987,1.81382,448.022,0.690629,0,345.068,281.962,9.29997
92.0924,1.86858,1.36761,1.94388,482.846,0.947321,1,361.709,278.356,10.3853
92.745,4.4743,1.07967,0.141648,429.872,0.760976,1,380.089,302.86,7.43336
92.8686,1.68906,0.886097,0.974847,479.256,0.818267,1,351.138,276.533,10.866